trial,start_time,rt,correct,alpha,fact_id,question,answer,priora,colour
1,8458.0,inf,True,0.227727272727272,1,sala,prayer,0.227727272727272,red
2,26299.0,2170.0,False,0.305,2,ubini,forgery,0.305,blue
3,34195.0,1734.0,True,0.305,2,ubini,forgery,0.305,blue
4,40120.0,4268.0,False,0.227727272727272,1,sala,prayer,0.227727272727272,red
5,46941.0,1809.0,True,0.223181818181818,3,theluji,snow,0.223181818181818,green
6,54095.0,4921.0,True,0.132272727272727,4,iktisadi,economy,0.132272727272727,purple
7,67674.0,3216.0,True,0.277727272727272,5,yamini,oath,0.277727272727272,grey
8,75174.0,2053.0,True,0.223181818181818,3,theluji,snow,0.223181818181818,green
9,80284.0,1776.0,True,0.277727272727272,5,yamini,oath,0.277727272727272,grey
10,85419.0,4906.0,True,0.291363636363636,6,mshoni,tailor,0.291363636363636,violet
11,94334.0,5490.0,True,0.223181818181818,7,tumbili,monkey,0.223181818181818,yellow
12,103455.0,4004.0,False,0.291363636363636,6,mshoni,tailor,0.291363636363636,violet
13,111670.0,2150.0,True,0.27733664772727196,1,sala,prayer,0.227727272727272,red
14,117019.0,2052.0,False,0.223181818181818,7,tumbili,monkey,0.223181818181818,yellow
15,123389.0,1703.0,True,0.264090909090909,8,fumbo,mystery,0.264090909090909,pink
16,129479.0,2424.0,False,0.340973011363636,6,mshoni,tailor,0.291363636363636,violet
17,137787.0,2066.0,True,0.264090909090909,8,fumbo,mystery,0.264090909090909,pink
18,144287.0,3548.0,False,0.255390625,2,ubini,forgery,0.305,blue
19,151935.0,2114.0,True,0.236818181818181,9,ziwa,lake,0.236818181818181,cyan
20,161387.0,inf,True,0.39058238636363596,6,mshoni,tailor,0.291363636363636,violet
21,171166.0,1876.0,True,0.236818181818181,9,ziwa,lake,0.236818181818181,cyan
22,175868.0,1779.0,True,0.055,10,mbwa,dog,0.055,orange
23,181959.0,2486.0,True,0.4401917613636359,6,mshoni,tailor,0.291363636363636,violet
24,187619.0,inf,False,0.272791193181818,7,tumbili,monkey,0.223181818181818,yellow
25,198060.0,1636.0,True,0.48980113636363587,6,mshoni,tailor,0.291363636363636,violet
26,203169.0,8553.0,True,0.186818181818181,11,nyanya,tomato,0.186818181818181,red
27,216046.0,1647.0,True,0.227727272727272,12,rafiki,friend,0.227727272727272,blue
28,223526.0,2464.0,False,0.30499999999999994,2,ubini,forgery,0.305,blue
29,229499.0,2693.0,True,0.24590909090909,13,pafu,lung,0.24590909090909,green
30,238038.0,1465.0,True,0.4776917613636359,6,mshoni,tailor,0.291363636363636,violet
31,242839.0,1221.0,False,0.227727272727272,12,rafiki,friend,0.227727272727272,blue
32,247444.0,1535.0,True,0.24590909090909,13,pafu,lung,0.24590909090909,green
33,252314.0,2495.0,True,0.32240056818181795,7,tumbili,monkey,0.223181818181818,yellow
34,258387.0,1856.0,True,0.268636363636363,14,paji,forehead,0.268636363636363,purple
35,269134.0,1211.0,True,0.186818181818181,11,nyanya,tomato,0.186818181818181,red
36,274326.0,1360.0,True,0.268636363636363,14,paji,forehead,0.268636363636363,purple
37,279681.0,inf,True,0.35382812499999994,2,ubini,forgery,0.305,blue
38,302160.0,2594.0,False,0.4718323863636359,6,mshoni,tailor,0.291363636363636,violet
39,310278.0,1394.0,True,0.3720099431818179,7,tumbili,monkey,0.223181818181818,yellow
40,315515.0,6445.0,False,0.228117897727272,5,yamini,oath,0.277727272727272,grey
41,324324.0,1168.0,True,0.27733664772727196,12,rafiki,friend,0.227727272727272,blue
42,330486.0,5267.0,True,0.3971874999999999,2,ubini,forgery,0.305,blue
43,339649.0,2138.0,True,0.47222301136363587,6,mshoni,tailor,0.291363636363636,violet
44,345075.0,3112.0,True,0.273181818181818,15,mfupa,bone,0.273181818181818,grey
45,352602.0,4370.0,True,0.255,16,jani,leaf,0.255,violet
46,360532.0,2498.0,True,0.273181818181818,15,mfupa,bone,0.273181818181818,grey
47,366045.0,1306.0,True,0.255,16,jani,leaf,0.255,violet
48,370430.0,1576.0,True,0.277727272727272,17,jibini,cheese,0.277727272727272,yellow
49,377030.0,1443.0,True,0.286818181818181,18,hadithi,story,0.286818181818181,pink
50,383853.0,1457.0,True,0.277727272727272,17,jibini,cheese,0.277727272727272,yellow
51,388316.0,2481.0,True,0.286818181818181,18,hadithi,story,0.286818181818181,pink
52,395566.0,1457.0,True,0.3716193181818179,7,tumbili,monkey,0.223181818181818,yellow
53,400955.0,inf,True,0.40070312499999994,2,ubini,forgery,0.305,blue
54,410869.0,inf,False,0.214481534090909,8,fumbo,mystery,0.264090909090909,pink
55,415752.0,1738.0,True,0.2527272727272719,1,sala,prayer,0.227727272727272,red
56,420720.0,1295.0,True,0.288416193181818,15,mfupa,bone,0.273181818181818,grey
57,425274.0,1494.0,True,0.3231463068181809,18,hadithi,story,0.286818181818181,pink
58,430573.0,2137.0,False,0.27772727272727205,5,yamini,oath,0.277727272727272,grey
59,438394.0,1545.0,True,0.45073863636363587,6,mshoni,tailor,0.291363636363636,violet
60,442992.0,2892.0,True,0.186818181818181,19,sumu,poison,0.186818181818181,cyan
61,451291.0,2095.0,True,0.268636363636363,20,nanga,anchor,0.268636363636363,orange
62,458760.0,1598.0,False,0.141363636363636,21,yai,egg,0.141363636363636,red
63,465171.0,2540.0,True,0.268636363636363,20,nanga,anchor,0.268636363636363,orange
64,471593.0,3597.0,False,0.132272727272727,4,iktisadi,economy,0.132272727272727,purple
65,477564.0,2012.0,True,0.277727272727272,22,rushwa,bribe,0.277727272727272,blue
66,483195.0,1996.0,True,0.286818181818181,23,lawama,blame,0.286818181818181,green
67,488846.0,2080.0,False,0.277727272727272,22,rushwa,bribe,0.277727272727272,blue
68,493302.0,4554.0,False,0.286818181818181,23,lawama,blame,0.286818181818181,green
69,500282.0,2968.0,False,0.4010937499999999,2,ubini,forgery,0.305,blue
70,506403.0,3268.0,True,0.186818181818181,19,sumu,poison,0.186818181818181,cyan
71,513006.0,1738.0,True,0.30730823863636303,20,nanga,anchor,0.268636363636363,orange
72,518166.0,1972.0,False,0.21902698863636302,14,paji,forehead,0.268636363636363,purple
73,523885.0,3057.0,True,0.33642755681818093,23,lawama,blame,0.286818181818181,green
74,529735.0,5816.0,False,0.327336647727272,22,rushwa,bribe,0.277727272727272,blue
75,538956.0,1713.0,True,0.45070312499999987,2,ubini,forgery,0.305,blue
76,543980.0,1620.0,True,0.214090909090909,24,rembo,ornament,0.214090909090909,purple
77,549960.0,1160.0,True,0.3860369318181809,23,lawama,blame,0.286818181818181,green
78,554154.0,1138.0,False,0.26409090909090904,8,fumbo,mystery,0.264090909090909,pink
79,558571.0,5304.0,True,0.37694602272727196,22,rushwa,bribe,0.277727272727272,blue
80,566923.0,3276.0,True,0.30311789772727205,5,yamini,oath,0.277727272727272,grey
81,573155.0,2315.0,False,0.214090909090909,24,rembo,ornament,0.214090909090909,purple
82,578967.0,inf,True,0.228117897727272,17,jibini,cheese,0.277727272727272,yellow
83,584812.0,1107.0,False,0.4265553977272719,22,rushwa,bribe,0.277727272727272,blue
84,588827.0,1657.0,True,0.4503124999999999,2,ubini,forgery,0.305,blue
85,594413.0,1286.0,True,0.218636363636363,25,pipa,barrel,0.218636363636363,grey
86,599245.0,1044.0,False,0.47616477272727187,22,rushwa,bribe,0.277727272727272,blue
87,604575.0,1424.0,True,0.3856463068181809,23,lawama,blame,0.286818181818181,green
88,608904.0,1371.0,True,0.209545454545454,26,farasi,horse,0.209545454545454,violet
89,613612.0,1198.0,True,0.5179616477272719,22,rushwa,bribe,0.277727272727272,blue
90,618238.0,5742.0,False,0.218636363636363,25,pipa,barrel,0.218636363636363,grey
91,626362.0,1583.0,True,0.352727272727272,5,yamini,oath,0.277727272727272,grey
92,630970.0,2227.0,True,0.27353693181818095,18,hadithi,story,0.286818181818181,pink
93,636483.0,1342.0,True,0.517571022727272,22,rushwa,bribe,0.277727272727272,blue
94,640776.0,inf,True,0.209545454545454,26,farasi,horse,0.209545454545454,violet
95,651632.0,1828.0,True,0.268636363636363,14,paji,forehead,0.268636363636363,purple
96,658024.0,inf,True,0.23642755681818098,19,sumu,poison,0.186818181818181,cyan
97,665244.0,1225.0,False,0.26370028409090895,24,rembo,ornament,0.214090909090909,purple
98,669561.0,1238.0,True,0.517180397727272,22,rushwa,bribe,0.277727272727272,blue
99,674418.0,1757.0,True,0.4499218749999999,2,ubini,forgery,0.305,blue
100,679552.0,2007.0,True,0.19629971590908998,13,pafu,lung,0.24590909090909,green
101,684895.0,4618.0,False,0.20539062500000002,16,jani,leaf,0.255,violet
102,691901.0,1551.0,True,0.187208806818181,9,ziwa,lake,0.236818181818181,cyan
103,696047.0,1260.0,True,0.27772727272727205,17,jibini,cheese,0.277727272727272,yellow
104,700220.0,2953.0,False,0.26824573863636303,25,pipa,barrel,0.218636363636363,grey
105,707347.0,2324.0,True,0.295731534090909,8,fumbo,mystery,0.264090909090909,pink
106,714714.0,4141.0,True,0.4011292613636359,6,mshoni,tailor,0.291363636363636,violet
107,721924.0,2431.0,True,0.32825994318181795,7,tumbili,monkey,0.223181818181818,yellow
108,727599.0,2894.0,True,0.29590909090909,27,ladha,flavor,0.29590909090909,yellow
109,735166.0,1380.0,False,0.3133096590909089,24,rembo,ornament,0.214090909090909,purple
110,739360.0,1791.0,False,0.29590909090909,27,ladha,flavor,0.29590909090909,yellow
111,744224.0,1465.0,True,0.45073863636363587,6,mshoni,tailor,0.291363636363636,violet
112,748675.0,3160.0,False,0.259154829545454,26,farasi,horse,0.209545454545454,violet
113,759738.0,1481.0,True,0.467571022727272,22,rushwa,bribe,0.277727272727272,blue
114,765438.0,2529.0,False,0.34551846590908997,27,ladha,flavor,0.29590909090909,yellow
115,770308.0,1070.0,True,0.286036931818181,19,sumu,poison,0.186818181818181,cyan
116,775713.0,3230.0,True,0.317855113636363,25,pipa,barrel,0.218636363636363,grey
117,782965.0,3531.0,False,0.141363636363636,21,yai,egg,0.141363636363636,red
118,789080.0,1251.0,False,0.36291903409090887,24,rembo,ornament,0.214090909090909,purple
119,794288.0,1370.0,True,0.3951278409090899,27,ladha,flavor,0.29590909090909,yellow
120,800546.0,4279.0,False,0.2576988636363631,20,nanga,anchor,0.268636363636363,orange
121,807171.0,2069.0,True,0.33603693181818095,23,lawama,blame,0.286818181818181,green
122,813174.0,1372.0,True,0.4503480113636359,6,mshoni,tailor,0.291363636363636,violet
123,817708.0,2741.0,True,0.36746448863636294,25,pipa,barrel,0.218636363636363,grey
124,824606.0,1602.0,True,0.30876420454545395,26,farasi,horse,0.209545454545454,violet
125,829160.0,1984.0,True,0.268636363636363,28,bandari,harbor,0.268636363636363,pink
126,835904.0,1465.0,True,0.19590909090909,29,roho,soul,0.19590909090909,cyan
127,840223.0,2018.0,False,0.268636363636363,28,bandari,harbor,0.268636363636363,pink
128,844628.0,1622.0,True,0.39473721590908994,27,ladha,flavor,0.29590909090909,yellow
129,849704.0,1338.0,True,0.255,16,jani,leaf,0.255,violet
130,853944.0,3360.0,True,0.238806818181818,15,mfupa,bone,0.273181818181818,grey
131,860135.0,1574.0,True,0.3758096590909089,24,rembo,ornament,0.214090909090909,purple
132,865414.0,1337.0,True,0.114090909090909,30,wingu,cloud,0.114090909090909,orange
133,870223.0,1392.0,True,0.259545454545454,31,nira,yoke,0.259545454545454,red
134,876891.0,2292.0,False,0.31824573863636296,28,bandari,harbor,0.268636363636363,pink
135,881538.0,1645.0,True,0.259545454545454,31,nira,yoke,0.259545454545454,red
136,885905.0,1327.0,False,0.19590909090909,29,roho,soul,0.19590909090909,cyan
137,889573.0,1820.0,False,0.380355113636363,25,pipa,barrel,0.218636363636363,grey
138,894743.0,4509.0,False,0.30730823863636303,20,nanga,anchor,0.268636363636363,orange
139,901614.0,1595.0,True,0.22772727272727197,12,rafiki,friend,0.227727272727272,blue
140,906276.0,2428.0,True,0.173572443181818,3,theluji,snow,0.223181818181818,green

