trial,start_time,rt,correct,alpha,fact_id,question,answer,priora
1,8343.0,1524.0,True,0.227727272727272,1,sala,prayer,0.227727272727272
2,14502.0,1278.0,True,0.305,2,ubini,forgery,0.305
3,19151.0,1048.0,True,0.305,2,ubini,forgery,0.305
4,23467.0,1115.0,True,0.223181818181818,3,theluji,snow,0.223181818181818
5,27810.0,1151.0,True,0.227727272727272,1,sala,prayer,0.227727272727272
6,32168.0,946.0,True,0.132272727272727,4,iktisadi,economy,0.132272727272727
7,37967.0,1039.0,True,0.277727272727272,5,yamini,oath,0.277727272727272
8,41922.0,1855.0,True,0.291363636363636,6,mshoni,tailor,0.291363636363636
9,48032.0,3248.0,False,0.277727272727272,5,yamini,oath,0.277727272727272
10,54797.0,4899.0,False,0.291363636363636,6,mshoni,tailor,0.291363636363636
11,63891.0,1781.0,True,0.223181818181818,3,theluji,snow,0.223181818181818
12,68406.0,944.0,True,0.223181818181818,7,tumbili,monkey,0.223181818181818
13,72745.0,924.0,True,0.264090909090909,8,fumbo,mystery,0.264090909090909
14,77673.0,3057.0,True,0.327336647727272,5,yamini,oath,0.277727272727272
15,84471.0,2599.0,False,0.264090909090909,8,fumbo,mystery,0.264090909090909
16,93358.0,1889.0,True,0.340973011363636,6,mshoni,tailor,0.291363636363636
17,98536.0,1759.0,False,0.223181818181818,7,tumbili,monkey,0.223181818181818
18,103662.0,1189.0,True,0.236818181818181,9,ziwa,lake,0.236818181818181
19,107991.0,1337.0,True,0.37694602272727196,5,yamini,oath,0.277727272727272
20,113456.0,inf,True,0.255390625,2,ubini,forgery,0.305
21,118399.0,inf,False,0.236818181818181,9,ziwa,lake,0.236818181818181
22,129760.0,8102.0,False,0.313700284090909,8,fumbo,mystery,0.264090909090909
23,142026.0,954.0,True,0.055,10,mbwa,dog,0.055
24,145646.0,984.0,True,0.186818181818181,11,nyanya,tomato,0.186818181818181
25,150310.0,1542.0,True,0.227727272727272,12,rafiki,friend,0.227727272727272
26,155230.0,941.0,True,0.24590909090909,13,pafu,lung,0.24590909090909
27,159654.0,1069.0,False,0.268636363636363,14,paji,forehead,0.268636363636363
28,163756.0,3985.0,False,0.36330965909090895,8,fumbo,mystery,0.264090909090909
29,170920.0,4186.0,False,0.268636363636363,14,paji,forehead,0.268636363636363
30,178865.0,931.0,False,0.24590909090909,13,pafu,lung,0.24590909090909
31,182727.0,2656.0,True,0.227727272727272,12,rafiki,friend,0.227727272727272
32,188679.0,inf,True,0.376555397727272,5,yamini,oath,0.277727272727272
33,194382.0,1120.0,True,0.286427556818181,9,ziwa,lake,0.236818181818181
34,198148.0,3119.0,True,0.272791193181818,7,tumbili,monkey,0.223181818181818
35,204931.0,2384.0,False,0.4129190340909089,8,fumbo,mystery,0.264090909090909
36,210179.0,inf,True,0.30499999999999994,2,ubini,forgery,0.305
37,217132.0,6370.0,False,0.31824573863636296,14,paji,forehead,0.268636363636363
38,226756.0,2770.0,True,0.42616477272727193,5,yamini,oath,0.277727272727272
39,232182.0,1995.0,False,0.46252840909090887,8,fumbo,mystery,0.264090909090909
40,237387.0,4498.0,False,0.186818181818181,11,nyanya,tomato,0.186818181818181
41,244871.0,2938.0,True,0.29551846590909003,13,pafu,lung,0.24590909090909
42,250585.0,4290.0,False,0.505887784090909,8,fumbo,mystery,0.264090909090909
43,258789.0,3145.0,True,0.3678551136363629,14,paji,forehead,0.268636363636363
44,265799.0,inf,True,0.44374289772727193,5,yamini,oath,0.277727272727272
45,271936.0,1325.0,True,0.3546093749999999,2,ubini,forgery,0.305
46,276393.0,inf,True,0.511747159090909,8,fumbo,mystery,0.264090909090909
47,293556.0,2593.0,False,0.4174644886363629,14,paji,forehead,0.268636363636363
48,300056.0,4839.0,False,0.3169318181818179,7,tumbili,monkey,0.223181818181818
49,307129.0,3752.0,False,0.29136363636363605,6,mshoni,tailor,0.291363636363636
50,314412.0,1200.0,False,0.524637784090909,8,fumbo,mystery,0.264090909090909
51,318450.0,1355.0,True,0.33340909090909,13,pafu,lung,0.24590909090909
52,322576.0,1684.0,True,0.5742471590909091,8,fumbo,mystery,0.264090909090909
53,328107.0,3387.0,False,0.4428551136363629,14,paji,forehead,0.268636363636363
54,335634.0,1772.0,True,0.4441335227272719,5,yamini,oath,0.277727272727272
55,340160.0,1901.0,True,0.24686789772727202,12,rafiki,friend,0.227727272727272
56,345772.0,1792.0,True,0.5738565340909091,8,fumbo,mystery,0.264090909090909
57,350942.0,2309.0,True,0.3665411931818179,7,tumbili,monkey,0.223181818181818
58,356905.0,1606.0,True,0.340973011363636,6,mshoni,tailor,0.291363636363636
59,362071.0,1356.0,True,0.5734659090909091,8,fumbo,mystery,0.264090909090909
60,366845.0,3627.0,True,0.4502769886363629,14,paji,forehead,0.268636363636363
61,373817.0,4905.0,True,0.3542187499999999,2,ubini,forgery,0.305
62,382262.0,1398.0,True,0.49988636363636296,14,paji,forehead,0.268636363636363
63,388398.0,1338.0,False,0.5730752840909091,8,fumbo,mystery,0.264090909090909
64,392784.0,2920.0,True,0.23642755681818098,11,nyanya,tomato,0.186818181818181
65,398704.0,1840.0,False,0.44374289772727193,5,yamini,oath,0.277727272727272
66,403708.0,1786.0,True,0.273181818181818,15,mfupa,bone,0.273181818181818
67,408391.0,982.0,True,0.255,16,jani,leaf,0.255
68,412405.0,3558.0,False,0.273181818181818,15,mfupa,bone,0.273181818181818
69,418732.0,1819.0,True,0.499495738636363,14,paji,forehead,0.268636363636363
70,424149.0,inf,True,0.255,16,jani,leaf,0.255
71,431487.0,1349.0,True,0.5734659090909091,8,fumbo,mystery,0.264090909090909
72,436260.0,2685.0,False,0.33145596590909,13,pafu,lung,0.24590909090909
73,441741.0,inf,False,0.463664772727272,5,yamini,oath,0.277727272727272
74,448091.0,2217.0,True,0.32279119318181804,15,mfupa,bone,0.273181818181818
75,453039.0,inf,False,0.132272727272727,4,iktisadi,economy,0.132272727272727
76,463569.0,1499.0,True,0.5132741477272721,5,yamini,oath,0.277727272727272
77,467783.0,3506.0,False,0.499105113636363,14,paji,forehead,0.268636363636363
78,474110.0,2840.0,True,0.30460937499999996,16,jani,leaf,0.255
79,479888.0,inf,True,0.5487144886363631,14,paji,forehead,0.268636363636363
80,485606.0,8155.0,False,0.3544318181818179,7,tumbili,monkey,0.223181818181818
81,500183.0,1616.0,True,0.36710937499999996,2,ubini,forgery,0.305
82,504917.0,2239.0,False,0.5128835227272721,5,yamini,oath,0.277727272727272
83,512253.0,1336.0,True,0.5545738636363631,14,paji,forehead,0.268636363636363
84,516827.0,2022.0,True,0.340582386363636,6,mshoni,tailor,0.291363636363636
85,521996.0,1405.0,False,0.523856534090909,8,fumbo,mystery,0.264090909090909
86,526218.0,6450.0,False,0.3487499999999999,16,jani,leaf,0.255
87,535458.0,1920.0,True,0.5351491477272722,5,yamini,oath,0.277727272727272
88,540189.0,1452.0,True,0.27353693181818095,11,nyanya,tomato,0.186818181818181
89,544854.0,inf,True,0.31068181818181806,15,mfupa,bone,0.273181818181818
90,553034.0,1149.0,True,0.277727272727272,17,jibini,cheese,0.277727272727272
91,557469.0,2468.0,False,0.39835937499999985,16,jani,leaf,0.255
92,562815.0,3484.0,False,0.277727272727272,17,jibini,cheese,0.277727272727272
93,568533.0,3116.0,False,0.5347585227272722,5,yamini,oath,0.277727272727272
94,575793.0,1176.0,False,0.524247159090909,8,fumbo,mystery,0.264090909090909
95,579965.0,inf,True,0.4479687499999998,16,jani,leaf,0.255
96,585451.0,1917.0,True,0.5738565340909091,8,fumbo,mystery,0.264090909090909
97,591888.0,inf,True,0.5640553977272722,5,yamini,oath,0.277727272727272
98,598925.0,2002.0,True,0.504964488636363,14,paji,forehead,0.268636363636363
99,604060.0,inf,True,0.6074147727272723,5,yamini,oath,0.277727272727272
100,610880.0,7668.0,True,0.327336647727272,17,jibini,cheese,0.277727272727272
101,621678.0,1820.0,True,0.6320241477272723,5,yamini,oath,0.277727272727272
102,626531.0,8231.0,True,0.360291193181818,15,mfupa,bone,0.273181818181818
103,637405.0,2498.0,True,0.5734659090909091,8,fumbo,mystery,0.264090909090909
104,643697.0,4215.0,True,0.6316335227272724,5,yamini,oath,0.277727272727272
105,650706.0,7259.0,True,0.4553906249999998,16,jani,leaf,0.255
106,660901.0,3209.0,True,0.6687428977272724,5,yamini,oath,0.277727272727272
107,666998.0,3410.0,True,0.37694602272727196,17,jibini,cheese,0.277727272727272
108,673512.0,1688.0,True,0.7167897727272724,5,yamini,oath,0.277727272727272
109,678148.0,2334.0,True,0.5049999999999999,16,jani,leaf,0.255
110,683192.0,1279.0,True,0.7163991477272724,5,yamini,oath,0.277727272727272
111,687276.0,3367.0,True,0.40990056818181797,15,mfupa,bone,0.273181818181818
112,693491.0,inf,True,0.36732244318181795,7,tumbili,monkey,0.223181818181818
113,703192.0,inf,True,0.4265553977272719,17,jibini,cheese,0.277727272727272
114,711298.0,2051.0,True,0.5613565340909091,8,fumbo,mystery,0.264090909090909
115,716798.0,1114.0,True,0.6667897727272724,5,yamini,oath,0.277727272727272
116,720613.0,2329.0,True,0.5046093749999999,16,jani,leaf,0.255
117,725547.0,4548.0,True,0.33340909090909,13,pafu,lung,0.24590909090909
118,732893.0,1591.0,True,0.432947443181818,15,mfupa,bone,0.273181818181818
119,737227.0,2619.0,True,0.36124999999999996,2,ubini,forgery,0.305
120,743025.0,1213.0,True,0.236818181818181,9,ziwa,lake,0.236818181818181
121,746864.0,2743.0,True,0.43319602272727187,17,jibini,cheese,0.277727272727272
122,752583.0,2080.0,True,0.5554971590909091,8,fumbo,mystery,0.264090909090909
123,758002.0,1740.0,True,0.5042187499999999,16,jani,leaf,0.255
124,762406.0,inf,True,0.39036931818181797,7,tumbili,monkey,0.223181818181818
125,769791.0,1522.0,True,0.6171803977272723,5,yamini,oath,0.277727272727272
126,774584.0,14879.0,False,0.38301846590908994,13,pafu,lung,0.24590909090909
127,792775.0,3130.0,True,0.17811789772727202,1,sala,prayer,0.227727272727272
128,798930.0,2266.0,True,0.45535511363636305,14,paji,forehead,0.268636363636363
129,804833.0,inf,True,0.43358664772727185,17,jibini,cheese,0.277727272727272
130,814975.0,2609.0,True,0.5426065340909091,8,fumbo,mystery,0.264090909090909
131,820983.0,inf,True,0.414978693181818,7,tumbili,monkey,0.223181818181818
132,829446.0,2069.0,True,0.411463068181818,15,mfupa,bone,0.273181818181818
133,834272.0,1663.0,False,0.4796093749999999,16,jani,leaf,0.255
134,839102.0,1237.0,True,0.286818181818181,18,hadithi,story,0.286818181818181
135,843255.0,2576.0,True,0.4519460227272719,17,jibini,cheese,0.277727272727272
136,849185.0,2823.0,False,0.286818181818181,18,hadithi,story,0.286818181818181
137,854242.0,1038.0,True,0.38497159090908994,13,pafu,lung,0.24590909090909
138,858024.0,1105.0,True,0.186818181818181,19,sumu,poison,0.186818181818181
139,863082.0,10445.0,False,0.5469034090909091,8,fumbo,mystery,0.264090909090909
140,876763.0,1429.0,True,0.5675710227272722,5,yamini,oath,0.277727272727272
141,880844.0,1633.0,True,0.33642755681818093,18,hadithi,story,0.286818181818181
142,885298.0,2359.0,True,0.4333380681818181,7,tumbili,monkey,0.223181818181818
143,890746.0,1599.0,True,0.470305397727272,17,jibini,cheese,0.277727272727272
144,895312.0,2012.0,False,0.47999999999999987,16,jani,leaf,0.255
145,900997.0,1121.0,True,0.268636363636363,20,nanga,anchor,0.268636363636363
146,905212.0,2246.0,True,0.5527627840909091,8,fumbo,mystery,0.264090909090909

