trial,start_time,rt,correct,alpha,fact_id,question,answer,priora
1,18143.0,4170.0,True,0.227727272727272,1,sala,prayer,0.227727272727272
2,28988.0,6832.0,True,0.305,2,ubini,forgery,0.305
3,44244.0,1467.0,True,0.305,2,ubini,forgery,0.305
4,51574.0,1219.0,True,0.227727272727272,1,sala,prayer,0.227727272727272
5,56658.0,3332.0,True,0.223181818181818,3,theluji,snow,0.223181818181818
6,63374.0,4215.0,True,0.132272727272727,4,iktisadi,economy,0.132272727272727
7,72227.0,3253.0,True,0.277727272727272,5,yamini,oath,0.277727272727272
8,80592.0,1562.0,True,0.223181818181818,3,theluji,snow,0.223181818181818
9,85528.0,2031.0,True,0.277727272727272,5,yamini,oath,0.277727272727272
10,91093.0,3666.0,True,0.291363636363636,6,mshoni,tailor,0.291363636363636
11,98709.0,3089.0,True,0.223181818181818,7,tumbili,monkey,0.223181818181818
12,107565.0,4317.0,True,0.291363636363636,6,mshoni,tailor,0.291363636363636
13,115652.0,3269.0,True,0.264090909090909,8,fumbo,mystery,0.264090909090909
14,125392.0,1438.0,True,0.223181818181818,7,tumbili,monkey,0.223181818181818
15,138095.0,18347.0,False,0.264090909090909,8,fumbo,mystery,0.264090909090909
16,160216.0,1524.0,True,0.340973011363636,6,mshoni,tailor,0.291363636363636
17,166748.0,8663.0,True,0.255390625,2,ubini,forgery,0.305
18,180142.0,1759.0,True,0.313700284090909,8,fumbo,mystery,0.264090909090909
19,186142.0,3670.0,True,0.236818181818181,9,ziwa,lake,0.236818181818181
20,193737.0,2055.0,True,0.055,10,mbwa,dog,0.055
21,199370.0,2870.0,True,0.186818181818181,11,nyanya,tomato,0.186818181818181
22,206117.0,1297.0,True,0.236818181818181,9,ziwa,lake,0.236818181818181
23,210515.0,2537.0,True,0.227727272727272,12,rafiki,friend,0.227727272727272
24,216788.0,1539.0,True,0.24590909090909,13,pafu,lung,0.24590909090909
25,223400.0,2942.0,True,0.268636363636363,14,paji,forehead,0.268636363636363
26,231842.0,1392.0,True,0.24590909090909,13,pafu,lung,0.24590909090909
27,237365.0,9823.0,False,0.268636363636363,14,paji,forehead,0.268636363636363
28,250688.0,2087.0,True,0.227727272727272,12,rafiki,friend,0.227727272727272
29,257574.0,4537.0,True,0.30499999999999994,2,ubini,forgery,0.305
30,265673.0,6028.0,True,0.186818181818181,11,nyanya,tomato,0.186818181818181
31,275868.0,1895.0,False,0.31824573863636296,14,paji,forehead,0.268636363636363
32,281506.0,7417.0,False,0.228117897727272,5,yamini,oath,0.277727272727272
33,292005.0,4228.0,True,0.273181818181818,15,mfupa,bone,0.273181818181818
34,301772.0,2287.0,True,0.255,16,jani,leaf,0.255
35,307638.0,4366.0,True,0.273181818181818,15,mfupa,bone,0.273181818181818
36,315292.0,14330.0,False,0.255,16,jani,leaf,0.255
37,333247.0,6400.0,True,0.3678551136363629,14,paji,forehead,0.268636363636363
38,343462.0,2407.0,True,0.3522656249999999,2,ubini,forgery,0.305
39,349995.0,3623.0,True,0.32279119318181804,15,mfupa,bone,0.273181818181818
40,357085.0,2466.0,True,0.296122159090909,8,fumbo,mystery,0.264090909090909
41,364125.0,1488.0,True,0.4174644886363629,14,paji,forehead,0.268636363636363
42,369280.0,1814.0,True,0.29136363636363605,6,mshoni,tailor,0.291363636363636
43,374702.0,1125.0,True,0.30460937499999996,16,jani,leaf,0.255
44,379334.0,1404.0,True,0.372400568181818,15,mfupa,bone,0.273181818181818
45,383910.0,3915.0,True,0.277727272727272,17,jibini,cheese,0.277727272727272
46,393273.0,6780.0,False,0.27772727272727205,5,yamini,oath,0.277727272727272
47,403773.0,1341.0,True,0.277727272727272,17,jibini,cheese,0.277727272727272
48,408462.0,1337.0,True,0.4170738636363629,14,paji,forehead,0.268636363636363
49,413440.0,17184.0,False,0.23642755681818098,11,nyanya,tomato,0.186818181818181
50,434898.0,3387.0,True,0.286818181818181,18,hadithi,story,0.286818181818181
51,441797.0,1238.0,True,0.186818181818181,19,sumu,poison,0.186818181818181
52,449118.0,1147.0,True,0.286818181818181,18,hadithi,story,0.286818181818181
53,453678.0,1378.0,True,0.372009943181818,15,mfupa,bone,0.273181818181818
54,458292.0,3253.0,True,0.35109374999999987,2,ubini,forgery,0.305
55,467349.0,2984.0,True,0.268636363636363,20,nanga,anchor,0.268636363636363
56,475201.0,1663.0,True,0.4166832386363629,14,paji,forehead,0.268636363636363
57,480455.0,1527.0,True,0.268636363636363,20,nanga,anchor,0.268636363636363
58,485416.0,inf,False,0.132272727272727,4,iktisadi,economy,0.132272727272727
59,498518.0,inf,False,0.315617897727272,5,yamini,oath,0.277727272727272
60,512286.0,inf,False,0.186818181818181,19,sumu,poison,0.186818181818181
61,536743.0,1465.0,True,0.286036931818181,11,nyanya,tomato,0.186818181818181
62,541585.0,1906.0,True,0.141363636363636,21,yai,egg,0.141363636363636
63,547654.0,inf,True,0.36522727272727196,5,yamini,oath,0.277727272727272
64,574676.0,2303.0,True,0.277727272727272,22,rushwa,bribe,0.277727272727272
65,581392.0,2532.0,True,0.286818181818181,23,lawama,blame,0.286818181818181
66,588115.0,3621.0,True,0.277727272727272,22,rushwa,bribe,0.277727272727272
67,594996.0,622.0,True,0.286818181818181,23,lawama,blame,0.286818181818181
68,599239.0,1503.0,True,0.35130681818181797,15,mfupa,bone,0.273181818181818
69,603670.0,2680.0,True,0.214090909090909,24,rembo,ornament,0.214090909090909
70,612584.0,3355.0,True,0.237208806818181,18,hadithi,story,0.286818181818181
71,619365.0,1958.0,True,0.327336647727272,22,rushwa,bribe,0.277727272727272
72,624901.0,2041.0,True,0.228117897727272,17,jibini,cheese,0.277727272727272
73,630389.0,4282.0,True,0.35148437499999985,2,ubini,forgery,0.305
74,638091.0,3055.0,True,0.214090909090909,24,rembo,ornament,0.214090909090909
75,644958.0,3634.0,False,0.19629971590908998,13,pafu,lung,0.24590909090909
76,652057.0,13133.0,False,0.280887784090909,8,fumbo,mystery,0.264090909090909
77,669621.0,4986.0,True,0.36561789772727193,5,yamini,oath,0.277727272727272
78,677691.0,11715.0,False,0.23642755681818098,19,sumu,poison,0.186818181818181
79,693416.0,4963.0,True,0.3932812499999998,2,ubini,forgery,0.305
80,701666.0,2536.0,True,0.255,16,jani,leaf,0.255
81,707075.0,4901.0,False,0.21902698863636302,20,nanga,anchor,0.268636363636363
82,715404.0,1290.0,True,0.36707386363636296,14,paji,forehead,0.268636363636363
83,720267.0,972.0,True,0.286818181818181,18,hadithi,story,0.286818181818181
84,725314.0,2372.0,True,0.26370028409090895,24,rembo,ornament,0.214090909090909
85,732895.0,6516.0,False,0.33049715909090893,8,fumbo,mystery,0.264090909090909
86,747225.0,1477.0,True,0.187208806818181,9,ziwa,lake,0.236818181818181
87,751795.0,1417.0,True,0.218636363636363,25,pipa,barrel,0.218636363636363
88,757937.0,13449.0,False,0.237208806818181,23,lawama,blame,0.286818181818181
89,774501.0,1446.0,True,0.40382812499999987,2,ubini,forgery,0.305
90,779256.0,2290.0,True,0.218636363636363,25,pipa,barrel,0.218636363636363
91,784770.0,6236.0,True,0.286036931818181,19,sumu,poison,0.186818181818181
92,796509.0,2045.0,True,0.28564630681818104,11,nyanya,tomato,0.186818181818181
93,802258.0,9106.0,False,0.17811789772727202,1,sala,prayer,0.227727272727272
94,816114.0,1652.0,True,0.27772727272727205,22,rushwa,bribe,0.277727272727272
95,822569.0,10085.0,True,0.366789772727272,5,yamini,oath,0.277727272727272
96,835633.0,1702.0,True,0.355106534090909,8,fumbo,mystery,0.264090909090909
97,842130.0,2559.0,False,0.24590909090909,13,pafu,lung,0.24590909090909
98,848008.0,2507.0,True,0.268636363636363,20,nanga,anchor,0.268636363636363
99,853591.0,1536.0,True,0.141363636363636,21,yai,egg,0.141363636363636
100,858000.0,5000.0,True,0.41639914772727193,5,yamini,oath,0.277727272727272
101,866235.0,1471.0,True,0.286818181818181,23,lawama,blame,0.286818181818181
102,870950.0,4592.0,False,0.173572443181818,3,theluji,snow,0.223181818181818
103,879748.0,1779.0,True,0.209545454545454,26,farasi,horse,0.209545454545454
104,885764.0,inf,False,0.31689630681818104,19,sumu,poison,0.186818181818181
105,898389.0,inf,True,0.4441335227272719,5,yamini,oath,0.277727272727272
106,906195.0,3882.0,False,0.4034374999999999,2,ubini,forgery,0.305
107,913532.0,inf,True,0.209545454545454,26,farasi,horse,0.209545454545454
108,917911.0,2257.0,True,0.29590909090909,27,ladha,flavor,0.29590909090909

